condition,subject,trial,sub_task,cat,x,y,xt,yt,resp,rt,fb
4F4K_congruent,3,0,2,B,57.77,27.07,0.06,0.43,B,6677,Correct
4F4K_congruent,3,1,1,A,35.89,68.19,0.04,1.07,B,3220,Incorrect
4F4K_congruent,3,2,1,A,51.41,62.46,0.06,0.98,B,885,Incorrect
4F4K_congruent,3,3,1,B,70.32,44.54,0.08,0.7,A,785,Incorrect
4F4K_congruent,3,4,2,A,18.79,48.95,0.02,0.77,A,534,Correct
4F4K_congruent,3,5,2,A,23.07,36.57,0.03,0.57,A,636,Correct
4F4K_congruent,3,6,1,B,54.69,36.86,0.06,0.58,B,711,Correct
4F4K_congruent,3,7,1,B,70.92,55.65,0.08,0.87,B,702,Correct
4F4K_congruent,3,8,1,B,49.59,35.36,0.06,0.56,B,986,Correct
4F4K_congruent,3,9,1,A,23.96,52.82,0.03,0.83,A,1202,Correct
4F4K_congruent,3,10,2,A,44.75,68.33,0.05,1.07,B,2192,Incorrect
4F4K_congruent,3,11,2,A,61.66,73.93,0.07,1.16,B,710,Incorrect
4F4K_congruent,3,12,1,B,50.68,41.64,0.06,0.65,B,804,Correct
4F4K_congruent,3,13,2,A,42.32,67.16,0.05,1.05,B,918,Incorrect
4F4K_congruent,3,14,2,A,15.85,32.89,0.02,0.52,A,799,Correct
4F4K_congruent,3,15,2,A,20.44,46.91,0.02,0.74,A,971,Correct
4F4K_congruent,3,16,2,B,31.46,13.06,0.04,0.21,A,1248,Incorrect
4F4K_congruent,3,17,2,A,33.5,43.02,0.04,0.68,A,986,Correct
4F4K_congruent,3,18,2,B,49.39,22.58,0.06,0.35,B,846,Correct
4F4K_congruent,3,19,2,A,26.31,39.65,0.03,0.62,A,1416,Correct
4F4K_congruent,3,20,2,B,63.13,50.13,0.07,0.79,B,1396,Correct
4F4K_congruent,3,21,2,B,43.79,33.67,0.05,0.53,B,1179,Correct
4F4K_congruent,3,22,2,A,30.27,54.78,0.03,0.86,B,860,Incorrect
4F4K_congruent,3,23,2,A,62.84,88.59,0.07,1.39,B,869,Incorrect
4F4K_congruent,3,24,1,B,72.79,51.13,0.08,0.8,B,814,Correct
4F4K_congruent,3,25,2,A,21.19,49.49,0.02,0.78,A,920,Correct
4F4K_congruent,3,26,2,A,47.24,54.9,0.05,0.86,B,1170,Incorrect
4F4K_congruent,3,27,2,A,26.81,41.24,0.03,0.65,A,839,Correct
4F4K_congruent,3,28,1,A,37.4,51.43,0.04,0.81,A,1337,Correct
4F4K_congruent,3,29,1,A,31.83,56.47,0.04,0.89,A,714,Correct
4F4K_congruent,3,30,1,A,27.29,40.11,0.03,0.63,A,1093,Correct
4F4K_congruent,3,31,1,A,42.17,58.79,0.05,0.92,B,760,Incorrect
4F4K_congruent,3,32,1,A,51.86,77.47,0.06,1.22,B,859,Incorrect
4F4K_congruent,3,33,2,B,58.97,49.87,0.07,0.78,B,743,Correct
4F4K_congruent,3,34,1,A,42.28,58.36,0.05,0.92,B,966,Incorrect
4F4K_congruent,3,35,2,A,45.28,65.03,0.05,1.02,B,930,Incorrect
4F4K_congruent,3,36,2,A,38.63,62.03,0.04,0.97,B,856,Incorrect
4F4K_congruent,3,37,1,B,53.28,26.93,0.06,0.42,B,717,Correct
4F4K_congruent,3,38,2,B,81.04,51.59,0.09,0.81,B,949,Correct
4F4K_congruent,3,39,1,B,83.46,53.18,0.09,0.84,B,867,Correct
4F4K_congruent,3,40,1,A,35.66,50.74,0.04,0.8,A,811,Correct
4F4K_congruent,3,41,1,B,69.09,56.36,0.08,0.89,B,1385,Correct
4F4K_congruent,3,42,2,B,38.65,17.21,0.04,0.27,A,746,Incorrect
4F4K_congruent,3,43,2,B,38.95,12.91,0.04,0.2,B,910,Correct
4F4K_congruent,3,44,2,B,38.78,22.76,0.04,0.36,B,776,Correct
4F4K_congruent,3,45,1,B,54.82,47.01,0.06,0.74,B,1876,Correct
4F4K_congruent,3,46,1,A,17.73,47.64,0.02,0.75,B,698,Incorrect
4F4K_congruent,3,47,1,A,40.46,61.15,0.05,0.96,A,985,Correct
4F4K_congruent,3,48,2,A,47.07,58.88,0.05,0.92,B,963,Incorrect
4F4K_congruent,3,49,1,A,24.2,45.18,0.03,0.71,A,799,Correct
4F4K_congruent,3,50,1,A,52.1,74.66,0.06,1.17,A,1730,Correct
4F4K_congruent,3,51,1,A,56.66,74.05,0.06,1.16,A,1477,Correct
4F4K_congruent,3,52,1,A,53.81,72.5,0.06,1.14,A,949,Correct
4F4K_congruent,3,53,2,A,58.15,77.42,0.07,1.22,A,570,Correct
4F4K_congruent,3,54,1,A,15.72,30.63,0.02,0.48,A,683,Correct
4F4K_congruent,3,55,1,A,49.82,77.46,0.06,1.22,B,1465,Incorrect
4F4K_congruent,3,56,2,B,52.94,21.89,0.06,0.34,B,1253,Correct
4F4K_congruent,3,57,1,B,88.62,65.88,0.1,1.03,A,1553,Incorrect
4F4K_congruent,3,58,2,B,62.4,35.78,0.07,0.56,B,869,Correct
4F4K_congruent,3,59,1,B,70.36,60.31,0.08,0.95,A,1564,Incorrect
4F4K_congruent,3,60,2,B,60.24,47.71,0.07,0.75,B,764,Correct
4F4K_congruent,3,61,1,B,68.28,56.08,0.08,0.88,A,2,Incorrect
4F4K_congruent,3,62,1,A,15.58,33.23,0.02,0.52,A,676,Correct
4F4K_congruent,3,63,2,B,50.49,41.98,0.06,0.66,B,1826,Correct
4F4K_congruent,3,64,2,A,62.3,75.29,0.07,1.18,A,1443,Correct
4F4K_congruent,3,65,2,A,62.95,74.45,0.07,1.17,B,4947,Incorrect
4F4K_congruent,3,66,1,A,49.74,66.61,0.06,1.05,A,2203,Correct
4F4K_congruent,3,67,1,B,40.19,25.28,0.04,0.4,B,725,Correct
4F4K_congruent,3,68,1,A,56.28,80.74,0.06,1.27,A,1383,Correct
4F4K_congruent,3,69,1,A,20.13,40.61,0.02,0.64,A,982,Correct
4F4K_congruent,3,70,1,B,38.32,26.79,0.04,0.42,B,813,Correct
4F4K_congruent,3,71,2,A,45.95,63.26,0.05,0.99,A,1694,Correct
4F4K_congruent,3,72,1,B,71.82,40.39,0.08,0.63,B,757,Correct
4F4K_congruent,3,73,2,B,55.87,29.0,0.06,0.46,B,734,Correct
4F4K_congruent,3,74,1,B,38.18,12.81,0.04,0.2,B,847,Correct
4F4K_congruent,3,75,1,A,66.91,81.44,0.07,1.28,A,909,Correct
4F4K_congruent,3,76,2,A,40.04,57.93,0.04,0.91,B,1310,Incorrect
4F4K_congruent,3,77,1,B,35.0,14.71,0.04,0.23,B,846,Correct
4F4K_congruent,3,78,1,B,72.17,42.61,0.08,0.67,B,900,Correct
4F4K_congruent,3,79,1,A,53.44,78.76,0.06,1.24,A,983,Correct
4F4K_congruent,3,80,2,A,63.34,74.68,0.07,1.17,B,909,Incorrect
4F4K_congruent,3,81,1,A,39.32,62.09,0.04,0.98,A,1226,Correct
4F4K_congruent,3,82,2,B,36.5,16.36,0.04,0.26,B,715,Correct
4F4K_congruent,3,83,2,B,65.04,41.46,0.07,0.65,A,2,Incorrect
4F4K_congruent,3,84,2,A,14.82,37.17,0.02,0.58,A,1346,Correct
4F4K_congruent,3,85,1,B,79.37,63.58,0.09,1.0,A,1080,Incorrect
4F4K_congruent,3,86,2,B,38.53,19.1,0.04,0.3,A,1866,Incorrect
4F4K_congruent,3,87,2,B,34.83,24.23,0.04,0.38,B,664,Correct
4F4K_congruent,3,88,2,A,66.28,81.86,0.07,1.29,A,643,Incorrect
4F4K_congruent,3,89,2,B,31.87,13.68,0.04,0.21,B,694,Correct
4F4K_congruent,3,90,2,B,60.79,46.83,0.07,0.74,A,1165,Incorrect
4F4K_congruent,3,91,1,B,61.63,30.61,0.07,0.48,B,667,Incorrect
4F4K_congruent,3,92,1,B,39.23,14.23,0.04,0.22,B,831,Correct
4F4K_congruent,3,93,2,B,41.18,32.05,0.05,0.5,B,1070,Correct
4F4K_congruent,3,94,1,A,67.48,89.68,0.08,1.41,A,773,Correct
4F4K_congruent,3,95,2,A,39.2,51.43,0.04,0.81,B,913,Incorrect
4F4K_congruent,3,96,2,B,60.38,31.58,0.07,0.5,B,829,Correct
4F4K_congruent,3,97,1,B,45.83,33.76,0.05,0.53,B,881,Correct
4F4K_congruent,3,98,2,B,40.37,13.43,0.05,0.21,B,1768,Correct
4F4K_congruent,3,99,1,B,61.58,29.44,0.07,0.46,B,706,Correct
4F4K_congruent,3,100,1,B,51.4,35.05,0.06,0.55,B,1590,Correct
4F4K_congruent,3,101,2,B,39.38,23.13,0.04,0.36,B,969,Correct
4F4K_congruent,3,102,1,A,49.64,57.15,0.06,0.9,A,1609,Correct
4F4K_congruent,3,103,2,B,36.15,18.27,0.04,0.29,B,818,Correct
4F4K_congruent,3,104,2,A,44.59,75.7,0.05,1.19,A,1380,Correct
4F4K_congruent,3,105,2,B,63.01,34.96,0.07,0.55,B,1242,Correct
4F4K_congruent,3,106,1,B,44.61,20.53,0.05,0.32,B,690,Correct
4F4K_congruent,3,107,2,B,87.31,64.97,0.1,1.02,B,1226,Correct
4F4K_congruent,3,108,2,A,40.02,72.67,0.04,1.14,B,932,Incorrect
4F4K_congruent,3,109,2,A,39.84,47.13,0.04,0.74,A,1083,Correct
4F4K_congruent,3,110,2,B,67.2,38.47,0.08,0.6,B,725,Correct
4F4K_congruent,3,111,1,B,83.97,57.08,0.09,0.9,B,1046,Correct
4F4K_congruent,3,112,2,B,68.83,43.39,0.08,0.68,B,960,Correct
4F4K_congruent,3,113,1,A,20.66,40.9,0.02,0.64,A,893,Correct
4F4K_congruent,3,114,1,A,56.5,78.0,0.06,1.23,B,2,Incorrect
4F4K_congruent,3,115,2,B,58.93,28.91,0.07,0.45,B,836,Correct
4F4K_congruent,3,116,1,A,36.53,55.0,0.04,0.86,A,969,Correct
4F4K_congruent,3,117,1,A,48.91,73.72,0.05,1.16,A,2008,Correct
4F4K_congruent,3,118,2,B,79.19,49.59,0.09,0.78,A,9183,Incorrect
4F4K_congruent,3,119,1,A,37.25,57.94,0.04,0.91,A,998,Correct
4F4K_congruent,3,120,1,B,76.46,46.63,0.09,0.73,B,7257,Correct
4F4K_congruent,3,121,2,B,40.6,18.08,0.05,0.28,A,1150,Incorrect
4F4K_congruent,3,122,2,B,76.35,46.98,0.09,0.74,B,2035,Correct
4F4K_congruent,3,123,1,B,59.13,36.04,0.07,0.57,B,930,Correct
4F4K_congruent,3,124,1,B,87.63,63.79,0.1,1.0,B,743,Correct
4F4K_congruent,3,125,2,A,39.4,71.04,0.04,1.12,A,1194,Correct
4F4K_congruent,3,126,1,B,31.27,12.43,0.03,0.2,A,759,Incorrect
4F4K_congruent,3,127,1,A,67.05,81.36,0.08,1.28,B,592,Incorrect
4F4K_congruent,3,128,2,A,60.36,74.91,0.07,1.18,A,1134,Correct
4F4K_congruent,3,129,2,B,45.27,17.46,0.05,0.27,B,2419,Correct
4F4K_congruent,3,130,2,B,60.63,40.77,0.07,0.64,B,619,Correct
4F4K_congruent,3,131,2,B,46.92,18.86,0.05,0.3,B,1137,Correct
4F4K_congruent,3,132,1,A,52.23,74.75,0.06,1.17,A,2103,Correct
4F4K_congruent,3,133,1,A,42.5,71.69,0.05,1.13,A,1147,Correct
4F4K_congruent,3,134,2,B,86.97,59.35,0.1,0.93,B,861,Correct
4F4K_congruent,3,135,1,A,56.98,72.46,0.06,1.14,B,1416,Incorrect
4F4K_congruent,3,136,1,B,34.18,15.33,0.04,0.24,A,826,Incorrect
4F4K_congruent,3,137,1,A,44.38,63.54,0.05,1.0,B,1050,Incorrect
4F4K_congruent,3,138,1,B,45.67,31.69,0.05,0.5,B,14777,Incorrect
4F4K_congruent,3,139,1,B,61.69,48.74,0.07,0.77,B,733,Correct
4F4K_congruent,3,140,1,B,82.31,66.03,0.09,1.04,B,946,Correct
4F4K_congruent,3,141,2,B,63.79,37.23,0.07,0.58,B,631,Correct
4F4K_congruent,3,142,2,B,44.14,30.21,0.05,0.47,B,5763,Correct
4F4K_congruent,3,143,2,B,53.5,27.97,0.06,0.44,B,2160,Correct
4F4K_congruent,3,144,1,A,62.24,84.32,0.07,1.32,A,3050,Correct
4F4K_congruent,3,145,2,A,47.54,55.65,0.05,0.87,B,8234,Incorrect
4F4K_congruent,3,146,1,A,16.98,41.23,0.02,0.65,A,710,Correct
4F4K_congruent,3,147,2,B,58.4,40.86,0.07,0.64,B,2681,Correct
4F4K_congruent,3,148,2,B,59.37,37.88,0.07,0.59,B,669,Correct
4F4K_congruent,3,149,1,A,63.13,86.17,0.07,1.35,A,786,Correct
4F4K_congruent,3,150,1,B,51.89,39.16,0.06,0.62,B,1349,Correct
4F4K_congruent,3,151,1,A,27.27,45.79,0.03,0.72,A,2765,Correct
4F4K_congruent,3,152,2,B,70.51,55.95,0.08,0.88,B,3553,Incorrect
4F4K_congruent,3,153,1,B,32.86,15.92,0.04,0.25,A,1148,Incorrect
4F4K_congruent,3,154,1,B,44.88,33.88,0.05,0.53,B,651,Correct
4F4K_congruent,3,155,1,A,45.3,74.91,0.05,1.18,A,875,Correct
4F4K_congruent,3,156,1,B,59.35,32.56,0.07,0.51,B,902,Incorrect
4F4K_congruent,3,157,2,A,31.4,48.99,0.04,0.77,B,1750,Incorrect
4F4K_congruent,3,158,2,A,12.47,38.01,0.01,0.6,A,832,Correct
4F4K_congruent,3,159,2,A,56.44,84.67,0.06,1.33,A,1001,Correct
4F4K_congruent,3,160,1,B,65.96,43.43,0.07,0.68,B,866,Correct
4F4K_congruent,3,161,1,B,66.68,48.08,0.07,0.76,B,946,Correct
4F4K_congruent,3,162,1,A,25.11,38.56,0.03,0.61,A,2,Incorrect
4F4K_congruent,3,163,1,A,45.94,69.19,0.05,1.09,B,1031,Incorrect
4F4K_congruent,3,164,2,B,72.95,52.83,0.08,0.83,B,1267,Correct
4F4K_congruent,3,165,1,B,73.93,41.32,0.08,0.65,B,693,Correct
4F4K_congruent,3,166,1,A,41.36,54.99,0.05,0.86,A,1710,Correct
4F4K_congruent,3,167,1,A,13.66,40.11,0.02,0.63,A,2393,Correct
4F4K_congruent,3,168,1,A,49.5,69.91,0.06,1.1,A,965,Correct
4F4K_congruent,3,169,2,A,48.09,78.81,0.05,1.24,A,769,Correct
4F4K_congruent,3,170,1,A,33.37,46.84,0.04,0.74,A,747,Correct
4F4K_congruent,3,171,1,B,78.29,57.11,0.09,0.9,A,926,Incorrect
4F4K_congruent,3,172,1,A,37.24,69.73,0.04,1.1,B,1960,Incorrect
4F4K_congruent,3,173,1,B,69.89,54.27,0.08,0.85,B,743,Correct
4F4K_congruent,3,174,1,B,43.49,29.51,0.05,0.46,B,859,Correct
4F4K_congruent,3,175,2,A,63.99,87.58,0.07,1.38,A,1011,Correct
4F4K_congruent,3,176,1,B,53.96,30.88,0.06,0.49,B,757,Correct
4F4K_congruent,3,177,2,A,49.04,67.45,0.05,1.06,A,1693,Correct
4F4K_congruent,3,178,1,A,28.41,46.52,0.03,0.73,A,2715,Correct
4F4K_congruent,3,179,2,B,54.24,45.96,0.06,0.72,B,743,Correct
4F4K_congruent,3,180,1,B,56.83,44.16,0.06,0.69,B,701,Correct
4F4K_congruent,3,181,1,B,86.38,61.28,0.1,0.96,B,827,Correct
4F4K_congruent,3,182,1,B,71.55,45.97,0.08,0.72,B,670,Correct
4F4K_congruent,3,183,2,B,55.0,44.29,0.06,0.7,B,1136,Correct
4F4K_congruent,3,184,1,B,84.43,59.69,0.09,0.94,A,1080,Incorrect
4F4K_congruent,3,185,2,B,48.12,21.54,0.05,0.34,B,799,Correct
4F4K_congruent,3,186,2,A,24.71,45.52,0.03,0.72,A,950,Correct
4F4K_congruent,3,187,1,B,41.53,27.04,0.05,0.42,B,635,Correct
4F4K_congruent,3,188,2,B,60.49,50.27,0.07,0.79,A,1100,Incorrect
4F4K_congruent,3,189,2,A,41.22,62.24,0.05,0.98,A,747,Correct
4F4K_congruent,3,190,2,A,61.11,74.63,0.07,1.17,B,5460,Incorrect
4F4K_congruent,3,191,2,A,47.42,73.54,0.05,1.16,A,1426,Correct
4F4K_congruent,3,192,1,A,14.16,34.33,0.02,0.54,A,810,Correct
4F4K_congruent,3,193,2,B,71.97,50.55,0.08,0.79,B,1226,Incorrect
4F4K_congruent,3,194,2,B,41.92,24.24,0.05,0.38,B,2316,Correct
4F4K_congruent,3,195,1,A,47.94,71.37,0.05,1.12,A,896,Correct
4F4K_congruent,3,196,2,A,33.75,60.54,0.04,0.95,B,2026,Incorrect
4F4K_congruent,3,197,2,A,64.08,78.34,0.07,1.23,B,2283,Incorrect
4F4K_congruent,3,198,2,A,45.03,64.13,0.05,1.01,A,1847,Correct
4F4K_congruent,3,199,1,A,58.54,74.01,0.07,1.16,A,1699,Correct
4F4K_congruent,3,200,1,A,47.29,57.95,0.05,0.91,A,1886,Correct
4F4K_congruent,3,201,1,B,47.28,29.17,0.05,0.46,B,636,Correct
4F4K_congruent,3,202,1,A,53.89,65.11,0.06,1.02,B,2130,Incorrect
4F4K_congruent,3,203,2,B,53.47,36.61,0.06,0.58,B,1110,Correct
4F4K_congruent,3,204,2,A,40.39,68.23,0.05,1.07,A,1709,Correct
4F4K_congruent,3,205,2,B,86.72,63.85,0.1,1.0,A,2717,Incorrect
4F4K_congruent,3,206,2,B,41.95,21.93,0.05,0.34,B,721,Correct
4F4K_congruent,3,207,2,B,73.85,52.46,0.08,0.82,A,1577,Incorrect
4F4K_congruent,3,208,1,A,39.71,50.09,0.04,0.79,B,677,Incorrect
4F4K_congruent,3,209,2,B,41.87,29.44,0.05,0.46,B,876,Correct
4F4K_congruent,3,210,2,A,33.53,51.8,0.04,0.81,B,949,Incorrect
4F4K_congruent,3,211,2,B,73.58,55.7,0.08,0.87,A,836,Incorrect
4F4K_congruent,3,212,2,B,32.41,19.48,0.04,0.31,A,2438,Incorrect
4F4K_congruent,3,213,1,B,45.37,16.09,0.05,0.25,B,814,Correct
4F4K_congruent,3,214,2,B,45.87,18.05,0.05,0.28,B,992,Correct
4F4K_congruent,3,215,1,B,54.28,28.86,0.06,0.45,B,1253,Incorrect
4F4K_congruent,3,216,1,A,55.42,82.78,0.06,1.3,A,1039,Correct
4F4K_congruent,3,217,1,A,65.87,79.43,0.07,1.25,A,781,Correct
4F4K_congruent,3,218,1,B,64.99,40.89,0.07,0.64,B,893,Correct
4F4K_congruent,3,219,2,B,47.38,32.58,0.05,0.51,B,743,Correct
4F4K_congruent,3,220,2,B,41.33,29.74,0.05,0.47,B,1509,Correct
4F4K_congruent,3,221,2,A,12.99,34.95,0.01,0.55,A,915,Correct
4F4K_congruent,3,222,1,A,22.11,50.2,0.02,0.79,A,937,Correct
4F4K_congruent,3,223,2,B,65.8,44.66,0.07,0.7,B,852,Correct
4F4K_congruent,3,224,1,B,59.15,35.04,0.07,0.55,B,5217,Incorrect
4F4K_congruent,3,225,2,A,67.29,83.93,0.08,1.32,B,2,Incorrect
4F4K_congruent,3,226,1,B,42.03,30.21,0.05,0.47,B,1019,Correct
4F4K_congruent,3,227,2,A,34.88,47.65,0.04,0.75,B,747,Incorrect
4F4K_congruent,3,228,1,A,38.58,59.16,0.04,0.93,B,682,Incorrect
4F4K_congruent,3,229,1,A,64.7,79.22,0.07,1.24,B,764,Incorrect
4F4K_congruent,3,230,1,A,63.65,81.93,0.07,1.29,A,813,Correct
4F4K_congruent,3,231,2,B,35.14,23.84,0.04,0.37,B,560,Correct
4F4K_congruent,3,232,2,A,25.16,41.72,0.03,0.66,A,699,Correct
4F4K_congruent,3,233,1,B,54.93,37.63,0.06,0.59,B,1480,Correct
4F4K_congruent,3,234,2,A,21.41,38.91,0.02,0.61,A,676,Correct
4F4K_congruent,3,235,2,B,50.18,23.66,0.06,0.37,B,727,Correct
4F4K_congruent,3,236,2,B,60.44,40.31,0.07,0.63,B,859,Correct
4F4K_congruent,3,237,2,B,80.49,63.69,0.09,1.0,A,5366,Incorrect
4F4K_congruent,3,238,1,A,29.97,53.51,0.03,0.84,A,2253,Correct
4F4K_congruent,3,239,1,A,30.9,49.92,0.03,0.78,A,863,Correct
4F4K_congruent,3,240,1,A,16.54,45.32,0.02,0.71,A,910,Correct
4F4K_congruent,3,241,2,A,14.35,30.33,0.02,0.48,A,685,Correct
4F4K_congruent,3,242,1,A,44.89,60.64,0.05,0.95,A,3847,Correct
4F4K_congruent,3,243,2,B,43.95,28.24,0.05,0.44,B,811,Correct
4F4K_congruent,3,244,1,A,55.55,65.7,0.06,1.03,A,2907,Correct
4F4K_congruent,3,245,2,A,15.99,37.63,0.02,0.59,A,626,Correct
4F4K_congruent,3,246,2,A,34.34,50.13,0.04,0.79,B,1210,Incorrect
4F4K_congruent,3,247,1,B,34.02,21.82,0.04,0.34,B,993,Correct
4F4K_congruent,3,248,2,B,52.56,28.6,0.06,0.45,B,632,Correct
4F4K_congruent,3,249,1,B,61.27,40.52,0.07,0.64,B,664,Correct
4F4K_congruent,3,250,2,A,29.35,47.77,0.03,0.75,A,2,Correct
4F4K_congruent,3,251,1,A,56.45,67.0,0.06,1.05,A,1002,Correct
4F4K_congruent,3,252,2,B,60.47,33.86,0.07,0.53,B,653,Correct
4F4K_congruent,3,253,1,B,77.35,65.53,0.09,1.03,B,830,Correct
4F4K_congruent,3,254,2,A,48.46,64.83,0.05,1.02,B,1242,Incorrect
4F4K_congruent,3,255,1,B,66.5,55.95,0.07,0.88,B,960,Correct
4F4K_congruent,3,256,2,A,34.75,47.07,0.04,0.74,B,1076,Incorrect
4F4K_congruent,3,257,2,A,17.83,41.95,0.02,0.66,A,693,Correct
4F4K_congruent,3,258,1,A,31.17,42.64,0.03,0.67,B,2149,Incorrect
4F4K_congruent,3,259,2,A,27.78,49.84,0.03,0.78,A,780,Correct
4F4K_congruent,3,260,1,A,10.84,31.45,0.01,0.49,A,766,Correct
4F4K_congruent,3,261,1,B,75.17,45.98,0.08,0.72,B,2269,Correct
4F4K_congruent,3,262,1,A,22.72,54.11,0.03,0.85,A,986,Correct
4F4K_congruent,3,263,1,A,45.09,59.93,0.05,0.94,B,2688,Incorrect
4F4K_congruent,3,264,2,A,24.22,53.77,0.03,0.84,A,1360,Correct
4F4K_congruent,3,265,2,A,39.22,54.92,0.04,0.86,A,2009,Correct
4F4K_congruent,3,266,1,A,66.62,81.31,0.07,1.28,A,476,Incorrect
4F4K_congruent,3,267,2,B,71.74,54.16,0.08,0.85,B,2776,Correct
4F4K_congruent,3,268,1,A,11.74,37.64,0.01,0.59,A,709,Correct
4F4K_congruent,3,269,2,B,74.21,49.28,0.08,0.77,B,980,Correct
4F4K_congruent,3,270,2,B,55.8,30.57,0.06,0.48,B,882,Correct
4F4K_congruent,3,271,1,B,68.37,51.25,0.08,0.8,B,996,Correct
4F4K_congruent,3,272,2,A,38.27,70.86,0.04,1.11,A,1015,Correct
4F4K_congruent,3,273,1,A,34.02,60.47,0.04,0.95,B,1269,Incorrect
4F4K_congruent,3,274,2,A,32.24,42.96,0.04,0.67,A,736,Correct
4F4K_congruent,3,275,2,A,53.63,61.11,0.06,0.96,B,2,Incorrect
4F4K_congruent,3,276,1,B,40.26,29.44,0.05,0.46,A,63,Incorrect
4F4K_congruent,3,277,2,B,70.33,40.75,0.08,0.64,B,1410,Correct
4F4K_congruent,3,278,2,B,59.29,37.76,0.07,0.59,B,1364,Incorrect
4F4K_congruent,3,279,2,B,60.33,33.51,0.07,0.53,B,14274,Incorrect
4F4K_congruent,3,280,1,B,65.18,44.91,0.07,0.71,B,1112,Correct
4F4K_congruent,3,281,2,A,30.84,60.26,0.03,0.95,A,815,Correct
4F4K_congruent,3,282,1,B,63.16,42.58,0.07,0.67,B,1630,Correct
4F4K_congruent,3,283,1,A,55.25,74.12,0.06,1.16,B,4216,Incorrect
4F4K_congruent,3,284,2,B,81.15,62.44,0.09,0.98,B,786,Correct
4F4K_congruent,3,285,2,B,49.43,28.18,0.06,0.44,B,1087,Incorrect
4F4K_congruent,3,286,2,B,58.91,36.01,0.07,0.57,B,730,Correct
4F4K_congruent,3,287,2,A,37.28,47.1,0.04,0.74,B,932,Incorrect
4F4K_congruent,3,288,1,A,20.02,40.29,0.02,0.63,A,720,Correct
4F4K_congruent,3,289,2,B,60.89,36.58,0.07,0.57,B,735,Correct
4F4K_congruent,3,290,2,A,55.55,77.1,0.06,1.21,A,969,Correct
4F4K_congruent,3,291,1,A,32.73,47.81,0.04,0.75,A,1030,Correct
4F4K_congruent,3,292,1,B,33.97,22.42,0.04,0.35,B,1210,Correct
4F4K_congruent,3,293,1,A,25.11,51.7,0.03,0.81,A,2299,Correct
4F4K_congruent,3,294,1,A,36.5,64.64,0.04,1.02,B,1386,Incorrect
4F4K_congruent,3,295,2,A,47.25,67.79,0.05,1.06,A,7180,Incorrect
4F4K_congruent,3,296,1,A,40.74,50.35,0.05,0.79,B,9176,Incorrect
4F4K_congruent,3,297,2,A,31.88,49.77,0.04,0.78,B,966,Incorrect
4F4K_congruent,3,298,1,A,40.97,58.05,0.05,0.91,B,1230,Incorrect
4F4K_congruent,3,299,1,A,38.73,55.09,0.04,0.87,A,669,Correct
4F4K_congruent,3,300,1,A,50.11,66.17,0.06,1.04,A,1914,Correct
4F4K_congruent,3,301,1,A,37.21,52.78,0.04,0.83,B,1899,Incorrect
4F4K_congruent,3,302,1,A,47.48,55.59,0.05,0.87,A,802,Correct
4F4K_congruent,3,303,1,B,78.19,46.84,0.09,0.74,B,1364,Correct
4F4K_congruent,3,304,2,A,39.22,61.69,0.04,0.97,A,913,Correct
4F4K_congruent,3,305,2,A,53.89,81.36,0.06,1.28,B,900,Incorrect
4F4K_congruent,3,306,1,B,45.56,34.65,0.05,0.54,B,964,Correct
4F4K_congruent,3,307,1,A,50.17,71.46,0.06,1.12,A,2982,Correct
4F4K_congruent,3,308,1,A,52.9,82.12,0.06,1.29,A,695,Correct
4F4K_congruent,3,309,2,B,61.04,41.81,0.07,0.66,B,2439,Incorrect
4F4K_congruent,3,310,1,B,32.39,18.88,0.04,0.3,B,3683,Correct
4F4K_congruent,3,311,2,B,58.27,35.93,0.07,0.56,B,568,Correct
4F4K_congruent,3,312,2,A,40.79,59.85,0.05,0.94,B,1013,Incorrect
4F4K_congruent,3,313,2,B,84.94,60.23,0.1,0.95,B,1606,Correct
4F4K_congruent,3,314,2,A,49.26,73.79,0.06,1.16,A,940,Correct
4F4K_congruent,3,315,1,B,70.73,46.23,0.08,0.73,B,903,Correct
4F4K_congruent,3,316,2,B,66.73,58.35,0.07,0.92,B,637,Correct
4F4K_congruent,3,317,2,A,60.65,74.16,0.07,1.16,A,3181,Incorrect
4F4K_congruent,3,318,1,A,22.44,51.27,0.03,0.81,A,757,Correct
4F4K_congruent,3,319,1,B,61.77,47.9,0.07,0.75,B,877,Correct
4F4K_congruent,3,320,1,A,30.27,45.1,0.03,0.71,A,803,Correct
4F4K_congruent,3,321,2,A,48.29,61.61,0.05,0.97,B,657,Incorrect
4F4K_congruent,3,322,2,B,71.23,53.52,0.08,0.84,B,793,Correct
4F4K_congruent,3,323,1,B,66.53,43.46,0.07,0.68,A,1747,Incorrect
4F4K_congruent,3,324,1,A,49.75,70.89,0.06,1.11,A,2003,Correct
4F4K_congruent,3,325,2,B,30.72,12.91,0.03,0.2,A,729,Incorrect
4F4K_congruent,3,326,1,B,66.69,42.7,0.07,0.67,B,650,Correct
4F4K_congruent,3,327,1,A,30.71,59.95,0.03,0.94,A,801,Correct
4F4K_congruent,3,328,1,A,54.55,72.33,0.06,1.14,A,762,Correct
4F4K_congruent,3,329,1,B,41.6,21.29,0.05,0.33,B,551,Correct
4F4K_congruent,3,330,1,B,37.12,14.92,0.04,0.23,B,844,Correct
4F4K_congruent,3,331,1,B,88.41,68.14,0.1,1.07,B,791,Correct
4F4K_congruent,3,332,1,B,47.58,39.54,0.05,0.62,B,1091,Correct
4F4K_congruent,3,333,1,B,76.83,61.73,0.09,0.97,A,815,Incorrect
4F4K_congruent,3,334,1,A,48.96,66.35,0.05,1.04,B,801,Incorrect
4F4K_congruent,3,335,2,A,15.75,34.45,0.02,0.54,A,945,Correct
4F4K_congruent,3,336,2,B,54.2,29.17,0.06,0.46,B,777,Correct
4F4K_congruent,3,337,1,A,34.87,63.32,0.04,0.99,A,1507,Correct
4F4K_congruent,3,338,2,A,33.45,50.91,0.04,0.8,B,645,Incorrect
4F4K_congruent,3,339,1,A,20.83,41.36,0.02,0.65,A,626,Correct
4F4K_congruent,3,340,1,A,47.32,70.68,0.05,1.11,B,689,Incorrect
4F4K_congruent,3,341,1,B,71.94,50.08,0.08,0.79,B,786,Correct
4F4K_congruent,3,342,1,B,32.04,14.45,0.04,0.23,A,828,Incorrect
4F4K_congruent,3,343,2,A,20.1,46.9,0.02,0.74,A,748,Correct
4F4K_congruent,3,344,1,A,62.35,82.14,0.07,1.29,A,982,Correct
4F4K_congruent,3,345,2,B,57.62,30.51,0.06,0.48,B,2082,Correct
4F4K_congruent,3,346,1,B,78.25,48.74,0.09,0.77,B,675,Correct
4F4K_congruent,3,347,1,A,53.68,68.14,0.06,1.07,A,1107,Correct
4F4K_congruent,3,348,1,A,60.52,78.37,0.07,1.23,A,1069,Correct
4F4K_congruent,3,349,2,B,75.89,58.35,0.08,0.92,B,938,Correct
4F4K_congruent,3,350,2,B,74.41,52.95,0.08,0.83,B,682,Correct
4F4K_congruent,3,351,1,A,14.28,43.46,0.02,0.68,A,755,Correct
4F4K_congruent,3,352,1,B,64.16,53.07,0.07,0.83,B,671,Correct
4F4K_congruent,3,353,2,B,59.91,44.94,0.07,0.71,B,876,Correct
4F4K_congruent,3,354,1,A,26.03,57.58,0.03,0.9,A,1078,Correct
4F4K_congruent,3,355,2,A,34.08,61.41,0.04,0.96,B,798,Incorrect
4F4K_congruent,3,356,1,B,46.47,32.45,0.05,0.51,B,826,Correct
4F4K_congruent,3,357,1,A,65.11,81.21,0.07,1.28,B,1760,Incorrect
4F4K_congruent,3,358,1,B,54.55,35.4,0.06,0.56,B,758,Correct
4F4K_congruent,3,359,2,B,34.01,15.82,0.04,0.25,A,1669,Incorrect
4F4K_congruent,3,360,2,B,47.5,27.7,0.05,0.44,B,608,Correct
4F4K_congruent,3,361,1,B,64.96,53.94,0.07,0.85,B,892,Correct
4F4K_congruent,3,362,2,B,46.49,38.08,0.05,0.6,B,862,Correct
4F4K_congruent,3,363,1,B,53.48,34.01,0.06,0.53,B,578,Correct
4F4K_congruent,3,364,1,B,50.88,28.13,0.06,0.44,B,632,Correct
4F4K_congruent,3,365,1,B,47.19,39.21,0.05,0.62,B,515,Correct
4F4K_congruent,3,366,2,A,46.23,69.14,0.05,1.09,A,1342,Correct
4F4K_congruent,3,367,1,A,53.7,81.16,0.06,1.27,A,717,Incorrect
4F4K_congruent,3,368,2,B,40.33,16.89,0.05,0.27,B,637,Correct
4F4K_congruent,3,369,1,B,47.13,21.26,0.05,0.33,B,1497,Correct
4F4K_congruent,3,370,1,B,54.47,26.62,0.06,0.42,B,540,Correct
4F4K_congruent,3,371,1,B,41.16,13.21,0.05,0.21,B,641,Correct
4F4K_congruent,3,372,1,B,72.88,48.49,0.08,0.76,B,714,Correct
4F4K_congruent,3,373,1,B,54.66,37.4,0.06,0.59,B,500,Correct
4F4K_congruent,3,374,2,B,49.72,37.65,0.06,0.59,B,538,Correct
4F4K_congruent,3,375,2,B,87.46,69.21,0.1,1.09,B,701,Correct
4F4K_congruent,3,376,2,B,87.96,63.5,0.1,1.0,B,921,Correct
4F4K_congruent,3,377,2,A,62.0,76.17,0.07,1.2,B,658,Incorrect
4F4K_congruent,3,378,2,A,62.79,73.17,0.07,1.15,B,533,Incorrect
4F4K_congruent,3,379,1,A,31.21,43.21,0.03,0.68,B,520,Incorrect
4F4K_congruent,3,380,1,B,51.45,20.37,0.06,0.32,B,765,Correct
4F4K_congruent,3,381,1,A,40.18,57.27,0.04,0.9,B,923,Incorrect
4F4K_congruent,3,382,2,A,37.74,56.22,0.04,0.88,A,1201,Correct
4F4K_congruent,3,383,2,A,20.63,35.67,0.02,0.56,B,133,Incorrect
4F4K_congruent,3,384,1,A,29.4,49.61,0.03,0.78,A,798,Correct
4F4K_congruent,3,385,2,A,32.33,49.42,0.04,0.78,B,704,Incorrect
4F4K_congruent,3,386,1,B,42.57,34.14,0.05,0.54,B,910,Correct
4F4K_congruent,3,387,2,A,37.1,44.81,0.04,0.7,A,809,Correct
4F4K_congruent,3,388,2,A,43.54,74.71,0.05,1.17,B,663,Incorrect
4F4K_congruent,3,389,1,A,52.04,82.67,0.06,1.3,A,886,Correct
4F4K_congruent,3,390,1,B,56.09,44.08,0.06,0.69,A,1175,Incorrect
4F4K_congruent,3,391,2,B,50.73,42.79,0.06,0.67,A,647,Incorrect
4F4K_congruent,3,392,1,A,33.64,62.7,0.04,0.98,B,1888,Incorrect
4F4K_congruent,3,393,1,B,53.58,34.47,0.06,0.54,A,613,Incorrect
4F4K_congruent,3,394,2,B,58.1,31.27,0.07,0.49,B,697,Correct
